StimNum,Key,KeyNum,Symb,Symb_R,Symb_G,X_pos,Y_pos,Hand,Sound_P,Sound_N,Beep,Import_Stim.thisRepN,Import_Stim.thisTrialN,Import_Stim.thisN,Import_Stim.thisIndex,RT_Hand_Bool.thisRepN,RT_Hand_Bool.thisTrialN,RT_Hand_Bool.thisN,RT_Hand_Bool.thisIndex,TR_Hand_Bool.thisRepN,TR_Hand_Bool.thisTrialN,TR_Hand_Bool.thisN,TR_Hand_Bool.thisIndex,CR_Old_Bool.thisRepN,CR_Old_Bool.thisTrialN,CR_Old_Bool.thisN,CR_Old_Bool.thisIndex,TR_Old_Pre_Bool.thisRepN,TR_Old_Pre_Bool.thisTrialN,TR_Old_Pre_Bool.thisN,TR_Old_Pre_Bool.thisIndex,RT_Bool.thisRepN,RT_Bool.thisTrialN,RT_Bool.thisN,RT_Bool.thisIndex,TR_Old_Post_Bool.thisRepN,TR_Old_Post_Bool.thisTrialN,TR_Old_Post_Bool.thisN,TR_Old_Post_Bool.thisIndex,CR_New_Bool.thisRepN,CR_New_Bool.thisTrialN,CR_New_Bool.thisN,CR_New_Bool.thisIndex,CR_Grp_Stop_Bool.thisRepN,CR_Grp_Stop_Bool.thisTrialN,CR_Grp_Stop_Bool.thisN,CR_Grp_Stop_Bool.thisIndex,CR_New_Iter_Stop.thisRepN,CR_New_Iter_Stop.thisTrialN,CR_New_Iter_Stop.thisN,CR_New_Iter_Stop.thisIndex,symb_map,symb_remap,Remap_Pair_1,Remap_Pair_2,Instr_Exp_Text.started,Instr_Exp_Text.stopped,Instr_Exp_Key.keys,Instr_Exp_Key.rt,Instr_Exp_Key.started,Instr_Exp_Key.stopped,Instr_CR_New_Text.started,Instr_CR_New_Text.stopped,Instr_CR_New_Press.keys,Instr_CR_New_Press.rt,Instr_CR_New_Press.started,Instr_CR_New_Press.stopped,Pre_Trial_Rec_Frame.started,Pre_Trial_Rec_Frame.stopped,stim_val,proposed_choice,key_num,stim_type,key,block_type,remap,repeat_count,trial_Count,grp_stop,grp_swap,block_num,prep_time,session,actual_press,rt,actual_choice,correct,RT_Rec_Frame_Stop.started,RT_Rec_Frame_Stop.stopped,RT_Stim_Image_Stop.started,RT_Stim_Image_Stop.stopped,RT_Press_Stop.keys,RT_Press_Stop.corr,RT_Press_Stop.started,RT_Press_Stop.stopped,CR_Feedback_Coin_Old.started,CR_Feedback_Coin_Old.stopped,RT_Rec_Frame_Feedback.started,RT_Rec_Frame_Feedback.stopped,RT_Feedback_Image.started,RT_Feedback_Image.stopped,RT_Press_Stop.rt,participant,session,date,expName,psychopyVersion,frameRate,
0,h,0,media/djnb.png,media/djnb_r.png,media/djnb_g.png,-0.038,0.075,media/hand.png,media/coin.wav,media/buzz.wav,media/beep.wav,0,0,0,0,,,,,,,,,,,,,,,,,,,,,,,,,,,,,,,,,,,,,,,,,,,,,,,,,,,,,,,,,,,,,,,,,,,,1,,,,,,,,,,,,,,,,,,,,1,1,2021_Jan_31_1817,Prep_vs_Init,2020.1.3,59.45783964593452,
1,u,1,media/dnnb.png,media/dnnb_r.png,media/dnnb_g.png,0.014,0.1,None,None,None,None,0,1,1,1,,,,,,,,,,,,,,,,,,,,,,,,,,,,,,,,,,,,,,,,,,,,,,,,,,,,,,,,,,,,,,,,,,,,1,,,,,,,,,,,,,,,,,,,,1,1,2021_Jan_31_1817,Prep_vs_Init,2020.1.3,59.45783964593452,
2,i,2,media/dinb.png,media/dinb_r.png,media/dinb_g.png,0.057,0.08,None,None,None,None,0,2,2,2,,,,,,,,,,,,,,,,,,,,,,,,,,,,,,,,,,,,,,,,,,,,,,,,,,,,,,,,,,,,,,,,,,,,1,,,,,,,,,,,,,,,,,,,,1,1,2021_Jan_31_1817,Prep_vs_Init,2020.1.3,59.45783964593452,
3,l,3,media/dgnb.png,media/dgnb_r.png,media/dgnb_g.png,0.1,0.04,None,None,None,None,0,3,3,3,,,,,,,,,,,,,,,,,,,,,,,,,,,,,,,,,,,,,,,,,,,,,,,,,,,,,,,,,,,,,,,,,,,,1,,,,,,,,,,,,,,,,,,,,1,1,2021_Jan_31_1817,Prep_vs_Init,2020.1.3,59.45783964593452,
4,h,0,media/ddnb.png,media/ddnb_r.png,media/ddnb_g.png,-0.038,0.075,None,None,None,None,0,4,4,4,,,,,,,,,,,,,,,,,,,,,,,,,,,,,,,,,,,,,,,,,,,,,,,,,,,,,,,,,,,,,,,,,,,,1,,,,,,,,,,,,,,,,,,,,1,1,2021_Jan_31_1817,Prep_vs_Init,2020.1.3,59.45783964593452,
5,u,1,media/dfnb.png,media/dfnb_r.png,media/dfnb_g.png,0.014,0.1,None,None,None,None,0,5,5,5,,,,,,,,,,,,,,,,,,,,,,,,,,,,,,,,,,,,,,,,,,,,,,,,,,,,,,,,,,,,,,,,,,,,1,,,,,,,,,,,,,,,,,,,,1,1,2021_Jan_31_1817,Prep_vs_Init,2020.1.3,59.45783964593452,
6,i,2,media/dcnb.png,media/dcnb_r.png,media/dcnb_g.png,0.057,0.08,None,None,None,None,0,6,6,6,,,,,,,,,,,,,,,,,,,,,,,,,,,,,,,,,,,,,,,,,,,,,,,,,,,,,,,,,,,,,,,,,,,,1,,,,,,,,,,,,,,,,,,,,1,1,2021_Jan_31_1817,Prep_vs_Init,2020.1.3,59.45783964593452,
7,l,3,media/dmnb.png,media/dmnb_r.png,media/dmnb_g.png,0.1,0.04,None,None,None,None,0,7,7,7,,,,,,,,,,,,,,,,,,,,,,,,,,,,,,,,,,,,,,,,,,,,,,,,,,,,,,,,,,,,,,,,,,,,1,,,,,,,,,,,,,,,,,,,,1,1,2021_Jan_31_1817,Prep_vs_Init,2020.1.3,59.45783964593452,
,,,,,,,,,,,,,,,,,,,,,,,,,,,,,,,,,,,,,,,,,,,,,,,,,,,,"(0, 1, 2, 3, 4, 6, 5, 7)","[2, 1, 0, 3, 4, 7, 5, 6]","[0, 2]","[5, 7]",8.03901720000431,None,space,1.986250700079836,8.03901720000431,None,,,,,,,,,,,,,,,,,,,,,,1,,,,,,,,,,,,,,,,,,,,1,1,2021_Jan_31_1817,Prep_vs_Init,2020.1.3,59.45783964593452,
,,,,,,,,,,,,,,,,,,,,,,,,,,,,,,,,,,,,,,,,0,0,0,0,0,0,0,0,0,0,0,0,,,,,,,,,,,10.067489299923182,None,h,0.26154029997996986,10.067489299923182,None,10.362961299950257,None,media/djnb.png,0,0,Symb,h,CR,1,0,0,1,0,1,99,1,a,99,8,1,10.59227269992698,12.567242299905047,10.59227269992698,None,None,0,10.59227269992698,None,12.633739869936834,None,12.62495719990693,12.933452099910937,12.62495719990693,12.933452099910937,,1,1,2021_Jan_31_1817,Prep_vs_Init,2020.1.3,59.45783964593452,
,,,,,,,,,,,,,,,,,,,,,,,,,,,,,,,,,,,,,,,,0,0,0,0,0,0,0,0,1,0,1,0,,,,,,,,,,,,,,,,,13.080697599914856,None,media/dmnb.png,7,3,Symb,l,CR,1,0,1,1,0,1,99,1,a,99,8,1,13.287122099893168,15.285075199906714,13.287122099893168,None,None,0,13.287122099893168,None,15.33554626990808,None,15.327257499913685,15.63449359999504,15.327257499913685,15.63449359999504,,1,1,2021_Jan_31_1817,Prep_vs_Init,2020.1.3,59.45783964593452,
,,,,,,,,,,,,,,,,,,,,,,,,,,,,,,,,,,,,,,,,0,0,0,0,0,0,0,0,2,0,2,0,,,,,,,,,,,,,,,,,15.796681799925864,None,media/dgnb.png,3,3,Symb,l,CR,1,0,2,1,0,1,99,1,a,99,8,0,16.00243130000308,17.99984309996944,16.00243130000308,None,None,0,16.00243130000308,None,18.033490479970354,None,18.038665999891236,None,18.038665999891236,None,,1,1,2021_Jan_31_1817,Prep_vs_Init,2020.1.3,59.45783964593452,
,,,,,,,,,,,,,,,,,,,,,,,,,,,,,,,,,,,,,,,,0,0,0,0,0,0,0,0,3,0,3,0,,,,,,,,,,,,,,,,,19.08079049992375,None,media/dgnb.png,3,3,Symb,l,CR,1,1,2,1,0,1,99,1,l,0.07654449995607138,3,0,19.28481099999044,None,19.28481099999044,None,l,1,19.28481099999044,None,19.43423665999435,None,19.42511569999624,None,19.42511569999624,None,0.07654449995607138,1,1,2021_Jan_31_1817,Prep_vs_Init,2020.1.3,59.45783964593452,
,,,,,,,,,,,,,,,,,,,,,,,,,,,,,,,,,,,,,,,,0,0,0,0,0,0,0,0,4,0,4,0,,,,,,,,,,,,,,,,,20.480955399922095,None,media/dgnb.png,3,3,Symb,l,CR,1,2,2,1,0,1,99,1,l,0.8627766000572592,3,0,20.69070129992906,None,20.69070129992906,None,l,1,20.69070129992906,None,21.61740436999826,None,21.618318900000304,None,21.618318900000304,None,0.8627766000572592,1,1,2021_Jan_31_1817,Prep_vs_Init,2020.1.3,59.45783964593452,
,,,,,,,,,,,,,,,,,,,,,,,,,,,,,,,,,,,,,,,,0,0,0,0,0,0,0,0,5,0,5,0,,,,,,,,,,,,,,,,,22.65845009998884,None,media/dgnb.png,3,3,Symb,l,CR,1,3,2,1,0,1,99,1,h,0.04640949994791299,0,0,22.874794199946336,None,22.874794199946336,None,h,0,22.874794199946336,None,23.001258859969678,None,22.993510599946603,None,22.993510599946603,None,0.04640949994791299,1,1,2021_Jan_31_1817,Prep_vs_Init,2020.1.3,59.45783964593452,
,,,,,,,,,,,,,,,,,,,,,,,,,,,,,,,,,,,,,,,,0,0,0,0,0,0,0,0,6,0,6,0,,,,,,,,,,,,,,,,,24.03099989995826,None,media/dgnb.png,3,3,Symb,l,CR,1,4,2,1,0,1,99,1,u,0.08559489995241165,1,0,24.2515106999781,None,24.2515106999781,None,u,0,24.2515106999781,None,24.41712835999206,None,24.415201299940236,None,24.415201299940236,None,0.08559489995241165,1,1,2021_Jan_31_1817,Prep_vs_Init,2020.1.3,59.45783964593452,
,,,,,,,,,,,,,,,,,,,,,,,,,,,,,,,,,,,,,,,,0,0,0,0,0,0,0,0,7,0,7,0,,,,,,,,,,,,,,,,,25.452027199906297,None,media/dgnb.png,3,3,Symb,l,CR,1,5,2,1,0,1,99,1,i,0.12481099995784461,2,0,25.668429599958472,None,25.668429599958472,None,i,0,25.668429599958472,None,25.850626069947612,None,25.844362799893133,None,25.844362799893133,None,0.12481099995784461,1,1,2021_Jan_31_1817,Prep_vs_Init,2020.1.3,59.45783964593452,
,,,,,,,,,,,,,,,,,,,,,,,,,,,,,,,,,,,,,,,,0,0,0,0,0,0,0,0,8,0,8,0,,,,,,,,,,,,,,,,,26.88116409990471,None,media/dgnb.png,3,3,Symb,l,CR,1,6,2,1,0,1,99,1,l,0.7111067000078037,3,0,27.098057799972594,None,27.098057799972594,None,l,1,27.098057799972594,None,27.86755706999684,None,27.869730799924582,None,27.869730799924582,None,0.7111067000078037,1,1,2021_Jan_31_1817,Prep_vs_Init,2020.1.3,59.45783964593452,
,,,,,,,,,,,,,,,,,,,,,,,,,,,,,,,,,,,,,,,,,,,,,,,,,,,,,,,,,,,,,,,,,,,,28.905764199909754,None,media/dgnb.png,3,3,Symb,l,CR,1,7,2,1,0,1,99,1,,,,,,,,,,,,,,,,,,,,,1,,,,,
